Folder: SW/CuClQDs/XRD&XRF/20190613

Note: CuClQDs/XRD&XRF/20190613/pool.txt
28.1179 5.9297 1.0000
28.1279 5.9489 1.0000
28.1379 11.0107 1.0000
28.1479 10.0508 1.0000
28.1579 6.9775 1.0000
28.1679 10.9250 1.0000
28.1779 11.9561 1.0000
28.1879 14.9356 1.0000
28.1979 5.9252 1.0000
28.2079 10.2961 1.0000
28.2179 4.9576 1.0000
28.2279 8.9136 1.0000
28.2379 8.9646 1.0000
28.2479 9.9373 1.0000
28.2579 13.9167 1.0000
28.2679 14.0851 1.0000
28.2779 11.9776 1.0000
28.2879 11.8880 1.0000
28.2979 14.0140 1.0000
28.3079 11.0692 1.0000
28.3179 9.9182 1.0000
28.3279 12.9973 1.0000
28.3379 5.9996 1.0000
28.3479 14.9981 1.0000
28.3579 10.9920 1.0000
28.3679 10.9450 1.0000
28.3779 12.9465 1.0000
28.3879 17.0311 1.0000
28.3979 20.9331 1.0000
28.4079 13.9083 1.0000
28.4179 6.9739 1.0000
28.4279 7.9456 1.0000
28.4379 8.9932 1.0000
28.4479 6.8628 1.0000
28.4579 3.9625 1.0000
28.4679 13.0860 1.0000
28.4779 10.9439 1.0000
28.4879 6.9868 1.0000
28.4979 6.9309 1.0000
28.5079 8.9565 1.0000
28.5179 4.9783 1.0000
28.5279 13.9616 1.0000
28.5379 9.0642 1.0000
28.5479 12.8918 1.0000
28.5579 16.0952 1.0000
28.5679 5.9455 1.0000
28.5779 11.9652 1.0000
28.5879 13.2945 1.0000
28.5979 10.9136 1.0000
28.6079 10.9521 1.0000
28.6179 8.1148 1.0000
28.6279 11.9133 1.0000
28.6379 12.9100 1.0000
28.6479 7.3242 1.0000
28.6579 7.9961 1.0000
28.6679 11.9580 1.0000
28.6779 19.9035 1.0000
28.6879 7.9795 1.0000
28.6979 10.9723 1.0000
28.7079 10.9909 1.0000
28.7179 12.8839 1.0000
28.7279 5.9910 1.0000
28.7379 13.9804 1.0000
28.7479 4.9656 1.0000
28.7579 9.8963 1.0000
28.7679 13.9065 1.0000
28.7779 11.9050 1.0000
28.7879 12.9353 1.0000
28.7979 8.0030 1.0000
28.8079 9.9533 1.0000
28.8179 14.9290 1.0000
28.8279 9.9703 1.0000
28.8379 7.0301 1.0000
28.8479 21.0085 1.0000
28.8579 13.8974 1.0000
28.8679 13.3242 1.0000
28.8779 5.9070 1.0000
28.8879 15.9700 1.0000
28.8979 11.9152 1.0000
28.9079 13.9139 1.0000
28.9179 11.0093 1.0000
28.9279 6.9599 1.0000
28.9379 12.2943 1.0000
28.9479 14.8936 1.0000
28.9579 12.9406 1.0000
28.9679 12.9745 1.0000
28.9779 8.9503 1.0000
28.9879 7.9489 1.0000
28.9979 5.0162 1.0000
29.0079 19.8747 1.0000
29.0179 10.9601 1.0000
29.0279 10.9678 1.0000
29.0379 10.8474 1.0000
29.0479 9.8981 1.0000
29.0579 13.9681 1.0000
29.0679 18.8091 1.0000
29.0779 11.9093 1.0000
29.0879 11.9117 1.0000
29.0979 9.9019 1.0000
29.1079 8.9770 1.0000
29.1179 12.9196 1.0000
29.1279 7.0115 1.0000
29.1379 13.9376 1.0000
29.1479 14.8911 1.0000
29.1579 5.9645 1.0000
29.1679 7.9848 1.0000
29.1779 13.0973 1.0000
29.1879 7.9404 1.0000
29.1979 6.9545 1.0000
29.2079 10.9074 1.0000
29.2179 16.8964 1.0000
29.2279 9.8898 1.0000
29.2379 11.9140 1.0000
29.2479 12.9689 1.0000
29.2579 8.9329 1.0000
29.2679 11.8937 1.0000
29.2779 9.9623 1.0000
29.2879 15.8945 1.0000
29.2979 6.0044 1.0000
29.3079 10.8996 1.0000
29.3179 11.8419 1.0000
29.3279 13.9913 1.0000
29.3379 10.0002 1.0000
29.3479 11.0029 1.0000
29.3579 7.9488 1.0000
29.3679 21.9028 1.0000
29.3779 13.0624 1.0000
29

File: A56_2thetaomega_2θ_ω.asc
*TYPE		=  Raw
*CLASS		=  ASCII CLASS
*SAMPLE		=  A56
*COMMENT	=
*FNAME		=  A56_2thetaomega_2θ_ω.asc
*DATE		=  13-Jun-19 17:02

*GROUP_COUNT	=  1
*GONIO		=  SmartLab(In-plane), 0.000000
*ATTACHMENT	=  χφZクレードル
*ASC		=  0, 0, 0.000000, 0.000000
*I_MONOCHRO	=  Ge(220)x2, 0.000000
*FILTER		=  None
*C_MONOCHRO	=  No_unit, 0.000000
*SLIT_NAME	=  0, 入射スリット
*SLIT_NAME	=  1, 受光スリット1
*SLIT_NAME	=  2, 受光スリット2
*COUNTER	=  HyPix 3000(H), 0
*POS_FORMAT	=  0
*SCAN_AXIS	=  2Theta/Omega
*MEAS_MODE	=  Continuous Scanning
*TARGET		=  29
*XRAY_CHAR	=  K-ALPHA1
*WAVE_LENGTH1	=  1.54059
*WAVE_LENGTH2	=  1.54441
*THICKNESS	=  0, 0.000000
*MU		=  0, 0.000000
*SCAN_MODE	=  2Theta/Omega
*SPEED_DIM	=  sec./step
*XUNIT		=  deg.
*YUNIT		=  counts
*SCALE_MODE	=  1
*REP_COUNT	=  0
*SE_COUNT	=  0
*STD_MATERIAL	=  Unknown, Unknown, 0.000000, 0.000000, 0.000000, 0.000000, 0.000000, 0.000000
*LATT_CONS	=  0, Unknown, Unknown, 0.000000, 0.000000, 0.000000, 0.000000, 0.000000, 0.000000
*SEC_COUNT	=  1
*TSPEC_SIZE	=  0
*EXTRA_SIZE	=  0
*MEMO		=

*BEGIN
*GROUP		=  0
*START		=  20
*STOP		=  90
*STEP		=  0.01
*OFFSET		=  0.000000
*SPEED		=  0.196312
*SLIT_SPEC	=  0, 0.500mm, 0.5, 0.000000
*SLIT_SPEC	=  1, 0.500mm, 0.5, 0.000000
*SLIT_SPEC	=  2, 0.500mm, 0.5, 0.000000
*KV		=  45
*MA		=  200
*LOW		=  0.000000
*HIGH		=  0.000000
*CTEMPER	=  0, 0.000000
*CTEMPER	=  1, 0.000000
*CTEMPER	=  2, 0.000000
*PAREX		=  0, 0.000000
*PAREX		=  1, 0.000000
*PAREX		=  2, 0.000000
*PAREX		=  3, 0.000000
*PAREX		=  4, 0.000000
*PAREX		=  5, 0.000000
*PAREX		=  6, 0.000000
*PAREX		=  7, 0.000000
*PAREX		=  8, 0.000000
*PAREX		=  9, 0.000000
*PAREX		=  10, 0.000000
*PAREX		=  11, 0.000000
*PAREX		=  12, 0.000000
*PAREX		=  13, 0.000000
*PAREX		=  14, 0.000000
*PAREX		=  15, 0.000000
*FULL_SCALE	=  177347
*INDEX		=  0, 0, 0
*COUNT		=  7001
0.967456, 0.000000, 0.992221, 0.97201
0.985255, 0.000000, 0.953149, 0.000000
0.000000, 0.000000, 1.97174, 0.000000
2.99183, 0.000000, 0.000000, 3.01651
0.000000, 0.000000, 3.95875, 1.97382
0.000000, 1.01147, 0.998964, 3.99161
0.999617, 1.98787, 0.000000, 2.0048
1.97967, 0.997859, 0.000000, 0.000000
0.000000, 2.00541, 1.97539, 3.02081
4.01704, 1.00377, 0.000000, 0.98902
0.987011, 1.9986, 0.979388, 0.000000
2.00848, 3.00132, 0.000000, 2.01359
0.999808, 1.9722, 0.975574, 0.000000
1.01936, 1.98347, 1.01689, 0.996436
0.000000, 0.000000, 0.000000, 0.983988
0.000000, 1.02767, 2.98256, 0.000000
0.984664, 0.975458, 0.992874, 1.97555
0.000000, 0.953149, 2.99016, 1.00395
0.000000, 0.000000, 1.99431, 2.006
3.01341, 0.000000, 1.98199, 1.96324
0.977428, 3.93259, 3.99706, 0.952998
0.958476, 3.00632, 1.0027, 3.01073
3.95437, 0.997965, 1.96379, 0.987511
3.96959, 0.000000, 5.96301, 3.99999
0.988021, 3.95792, 0.000000, 0.000000
3.97903, 0.997802, 1.00886, 0.000000
0.000000, 0.993788, 4.99864, 1.00199
0.000000, 1.00185, 1.01345, 3.95659
0.986181, 0.992416, 1.97636, 3.89263
2.01149, 0.990101, 1.0085, 2.96402
1.98022, 0.995634, 1.00193, 0.995587
0.996231, 2.98803, 3.01919, 1.01709
2.0052, 3.93718, 2.0221, 2.96804
3.99041, 4.00682, 3.95054, 3.96831
3.14678, 0.962919, 2.94678, 3.96082
2.96872, 4.00561, 0.000000, 1.99737
2.97226, 2.00679, 2.9697, 4.98616
5.00881, 3.95873, 2.96258, 7.08898
8.9675, 8.95366, 4.9747, 4.01235
12.2969, 18.034, 12.9385, 8.98154
12.9191, 17.9465, 14.1228, 17.9202
37.0946, 45.893, 36.8146, 40.7823
6245.44, 11494.5, 22001.8, 24741.7
34.9646, 27.1957, 25.9073, 29.0488
10.1642, 12.9724, 11.9285, 13.0037
9.9344, 9.20811, 8.9474, 9.88471
2.96903, 6.00138, 5.02407, 4.94392
3.99199, 9.92634, 4.12688, 4.01872
3.95487, 4.97688, 4.94695, 3.00487
4.01468, 2.9659, 3.0227, 0.987078
3.05218, 5.00562, 0.000000, 1.9899
3.0315, 1.97294, 9.09418, 3.98484
0.000000, 0.989299, 1.9987, 1.98604
0.979394, 0.991858, 2.94981, 2.00797
0.000000, 2.97651, 2.99638, 0.000000
1.9878, 2.98513, 0.000000, 3.96278
3.01341, 1.00379, 2.97552, 0.000000
0.989299, 1.00368, 2.00129, 1.97656
3.00584, 2.96268, 0.000000, 2.026
2.01677, 0.000000, 3.98576, 4.91459
0.000000, 1.98539, 1.00024, 0.000000
3.91092, 2.97822, 2.02983, 1.00024
0.000000, 1.99379, 1.97, 0.995842
2.9815, 1.00395, 0.000000, 2.97977
1.99734, 2.004, 2.00327, 1.03063
4.98868, 5.93969, 1.9842, 1.98902
0.999736, 0.000000, 1.96536, 1.96016
2.98868, 2.02508, 1.93509, 0.000000
2.99389, 2.99303, 1.01777, 3.01255
2.00671, 2.99197, 0.985895, 1.99246
3.01136, 3.99079, 3.95671, 1.00278
0.997334, 0.000000, 0.000000, 2.99031
2.01957, 1.01495, 0.986881, 0.000000
1.98677, 5.93172, 2.00091, 3.9786
2.93261, 1.99331, 0.96579, 0.000000
0.000000, 2.0121, 0.000000, 1.97437
0.985255, 2.96111, 2.97868, 0.000000
2.04627, 1.96873, 0.000000, 2.99731
2.96099, 2.97643, 0.000000, 1.99204
1.01373, 0.000000, 4.94149, 1.96749
2.02642, 4.00381, 0.983409, 0.998964
0.974621, 0.992145, 2.95559, 0.986702
2.96783, 1.00195, 6.92711, 1.15151
1.00596, 0.973592, 2.95041, 0.973592
0.99926, 2.01092, 0.977428, 4.98275
4.94045, 0.000000, 2.014, 3.02529
1.00583, 0.989296, 2.03264, 1.99134
8.9807, 6.93117, 6.99448, 2.95126
1.00109, 5.98626, 0.987519, 0.000000
2.99868, 4.00243, 0.997708, 2.97769
3.96084, 1.99089, 3.98988, 0.000000
3.96517, 0.000000, 3.00827, 0.979421
0.000000, 0.000000, 1.98809, 2.95787
1.00146, 3.97468, 1.99993, 0.000000
4.00297, 0.000000, 3.96023, 3.93464
0.994079, 0.000000, 1.98218, 1.0092
0.991792, 1.0199, 1.99573, 0.985326
1.00186, 0.000000, 3.01719, 0.000000
0.970122, 0.000000, 2.00345, 1.96894
1.0237, 2.00467, 1.01277, 3.02945
0.971069, 0.999736, 0.000000, 2.99282
3.99953, 5.94491, 2.99072, 2.98689
2.97254, 3.95989, 2.97139, 1.01774
0.000000, 1.99299, 0.986062, 2.00166
2.95192, 0.990101, 0.98511, 0.996693
1.00594, 0.994134, 0.000000, 0.98946
1.96894, 3.08916, 2.02373, 2.98514
2.98492, 1.01273, 1.01361, 0.000000
2.99414, 1.00193, 2.01972, 0.998752
0.986472, 1.98675, 2.00541, 2.01619
1.01487, 2.97515, 2.97492, 0.000000
2.9846, 3.9264, 1.99273, 0.986874
2.99944, 2.99901, 1.00076, 0.983507
2.01605, 1.99513, 0.982887, 0.000000
1.97433, 2.9571, 1.0237, 0.982541
3.98808, 3.98787, 3.00054, 2.00362
2.04446, 0.000000, 0.000000, 2.99088
1.01009, 1.98283, 3.02198, 2.01703
1.98052, 0.995524, 3.00494, 2.98514
1.96942, 3.96929, 1.00085, 0.984658
3.03892, 0.000000, 3.95288, 0.000000
1.98262, 0.998327, 1.97612, 1.01139
1.99617, 4.93339, 1.98504, 1.00146
0.000000, 1.99002, 0.978305, 0.000000
0.000000, 0.000000, 2.03756, 1.9993
1.00387, 3.93138, 0.993782, 0.984871
3.97552, 1.97643, 2.93694, 2.99688
0.000000, 5.14137, 1.98555, 0.000000
5.99647, 2.96494, 0.998445, 2.95988
2.99267, 1.97836, 1.00583, 2.00908
1.97226, 4.98606, 0.000000, 1.99025
0.997172, 0.993865, 3.0011, 0.999658
2.97912, 3.97624, 0.000000, 1.98206
0.000000, 2.99664, 1.97595, 2.99666
1.97918, 0.993811, 0.987034, 3.00599
0.97895, 1.97105, 2.96243, 0.000000
5.00987, 4.02812, 2.9844, 2.98278
0.996982, 1.00455, 1.96644, 1.01008
0.999001, 1.99987, 1.00073, 3.99504
2.99722, 0.986178, 0.000000, 3.95801
1.96878, 3.97054, 1.98146, 2.99866
3.99199, 2.96165, 1.00575, 3.05394
1.01009, 4.96321, 0.985318, 0.000000
0.99604, 2.97091, 2.02421, 4.93634
0.000000, 1.00539, 2.0126, 1.00195
1.99979, 1.98679, 1.02767, 1.9938
4.98959, 1.00917, 0.000000, 1.97986
4.00393, 1.95907, 4.03105, 0.979404
4.02416, 1.97954, 1.99601, 1.00193
2.99708, 1.00488, 2.98432, 1.99345
0.000000, 2.99398, 2.97274, 1.97631
0.993764, 2.96063, 3.96653, 2.01564
2.00824, 2.95648, 5.03121, 1.96766
3.99644, 1.97107, 1.97188, 1.01616
3.96795, 5.94514, 3.99687, 2.9729
3.00793, 0.986464, 1.97348, 4.98171
2.96203, 1.00716, 2.95835, 2.04456
1.97538, 3.93459, 2.93463, 0.992862
6.98454, 2.01826, 5.01533, 1.98929
8.03086, 6.04805, 0.999808, 7.96537
3.00081, 1.99678, 10.1435, 5.98219
4.0078, 3.01787, 5.91926, 4.00309
4.97723, 7.96651, 5.9438, 6.99797
11.9901, 9.97016, 16.0768, 16.9931
23.8302, 35.8179, 35.8617, 9.99654
840.489, 1214.52, 1481.07, 1789.46
15.0404, 20.1002, 24.0228, 19.8535
4.00645, 10.9587, 9.98346, 11.9056
8.96848, 10.024, 13.9032, 8.95649
2.97648, 6.90814, 7.95423, 7.91928
9.049, 11.2158, 3.99051, 9.12185
6.96714, 6.02325, 3.92165, 6.92342
6.95984, 4.96324, 3.02086, 2.98819
2.96849, 5.97888, 1.96957, 3.95657
1.98872, 6.9589, 3.97657, 2.98801
6.02677, 0.000000, 1.97523, 5.92329
0.000000, 1.01057, 4.98687, 1.97714
2.00526, 1.98253, 3.93484, 3.98577
2.98715, 2.00242, 5.97261, 3.97053
1.0002, 0.998276, 3.96411, 4.01538
2.03976, 1.99366, 2.00196, 3.99003
1.95854, 2.98772, 2.9966, 4.98609
0.000000, 1.02498, 6.00914, 3.0048
1.98336, 1.97676, 2.9951, 3.91753
3.99282, 1.98676, 3.95395, 2.97049
0.98536, 2.00654, 1.99793, 3.95697
1.98452, 4.00426, 1.00187, 2.96717
0.995215, 2.0066, 1.98683, 2.97499
2.97591, 0.000000, 3.03007, 0.997874
3.89688, 0.98511, 2.99693, 2.00289
2.00171, 1.99221, 0.000000, 3.99415
1.99096, 3.00755, 1.00531, 3.00433
3.02098, 2.96684, 2.95619, 2.016
1.95021, 2.98422, 1.99623, 1.97933
1.98201, 1.02077, 2.97313, 0.000000
0.000000, 4.00412, 0.000000, 0.994332
0.991942, 1.01147, 1.97591, 0.997859
4.00163, 7.94843, 1.96162, 4.93329
0.98369, 1.99632, 0.000000, 1.00236
1.98915, 2.97216, 1.95649, 3.94837
2.02199, 1.0152, 4.99521, 1.97991
5.01372, 2.96521, 1.01147, 2.99146
3.9715, 0.958476, 2.94105, 3.00292
1.94588, 0.989224, 1.95932, 1.0009
3.99485, 0.981625, 0.996603, 2.97862
0.989868, 4.96343, 0.000000, 2.00598
1.98886, 0.984318, 1.991, 3.00398
0.993303, 2.96912, 2.03717, 3.97819
2.0251, 1.00074, 5.92563, 1.98838
1.98225, 1.97804, 0.994134, 0.000000
2.00592, 1.95193, 0.000000, 0.000000
3.97921, 0.995516, 0.984658, 4.9576
0.000000, 0.993142, 1.99318, 2.0038
2.01612, 1.02936, 3.0226, 1.97241
1.96636, 1.97462, 1.98905, 1.97528
0.998752, 0.981942, 0.000000, 1.99462
1.99061, 0.979388, 1.97255, 0.995516
3.96007, 0.000000, 0.981195, 0.989402
1.00368, 1.02638, 2.9681, 1.02883
3.03259, 0.992874, 0.987745, 3.97417
0.000000, 2.98426, 2.97136, 1.00626
3.0143, 4.98706, 1.96765, 2.98566
4.97618, 2.97595, 2.01153, 0.993303
5.94445, 2.9678, 1.96745, 0.978305
0.000000, 1.98721, 2.01923, 3.97669
2.00943, 0.995984, 2.98307, 1.03375
3.93073, 0.999001, 0.9907, 3.98568
0.986126, 3.00184, 2.02793, 1.96761
0.974123, 4.00816, 0.977735, 0.984537
0.984861, 0.972822, 2.00206, 0.983545
2.00968, 1.93603, 0.974621, 0.983918
1.97305, 1.9795, 0.000000, 3.00047
2.00897, 2.95662, 2.05028, 3.14831
1.93058, 3.98309, 1.98533, 1.97066
2.0071, 4.97324, 2.99996, 0.000000
0.973592, 2.99019, 5.02798, 1.99289
6.00208, 2.99664, 0.000000, 1.9691
0.98511, 4.95629, 2.9925, 0.995433
3.96256, 1.00097, 0.980243, 0.000000
1.99226, 2.0134, 4.02326, 0.000000
3.00075, 0.995528, 1.98927, 3.96969
6.00809, 0.98982, 1.98741, 1.98362
0.994178, 0.000000, 0.996947, 2.01526
3.01366, 1.96229, 1.97616, 0.000000
4.05315, 2.99571, 0.991992, 4.03048
2.98051, 0.000000, 1.00139, 0.000000
2.98534, 3.00891, 0.000000, 1.0027
0.971961, 2.93058, 0.995346, 3.94127
0.984347, 0.980243, 0.994791, 2.99416
3.94027, 0.97895, 5.01926, 0.000000
2.94909
*END

*EOF

File: A59_2thetaomega_2θ_ω.asc
*TYPE		=  Raw
*CLASS		=  ASCII CLASS
*SAMPLE		=  A59
*COMMENT	=
*FNAME		=  A59_2thetaomega_2θ_ω.asc
*DATE		=  13-Jun-19 16:08

*GROUP_COUNT	=  1
*GONIO		=  SmartLab(In-plane), 0.000000
*ATTACHMENT	=  χφZクレードル
*ASC		=  0, 0, 0.000000, 0.000000
*I_MONOCHRO	=  Ge(220)x2, 0.000000
*FILTER		=  None
*C_MONOCHRO	=  No_unit, 0.000000
*SLIT_NAME	=  0, 入射スリット
*SLIT_NAME	=  1, 受光スリット1
*SLIT_NAME	=  2, 受光スリット2
*COUNTER	=  HyPix 3000(H), 0
*POS_FORMAT	=  0
*SCAN_AXIS	=  2Theta/Omega
*MEAS_MODE	=  Continuous Scanning
*TARGET		=  29
*XRAY_CHAR	=  K-ALPHA1
*WAVE_LENGTH1	=  1.54059
*WAVE_LENGTH2	=  1.54441
*THICKNESS	=  0, 0.000000
*MU		=  0, 0.000000
*SCAN_MODE	=  2Theta/Omega
*SPEED_DIM	=  sec./step
*XUNIT		=  deg.
*YUNIT		=  counts
*SCALE_MODE	=  1
*REP_COUNT	=  0
*SE_COUNT	=  0
*STD_MATERIAL	=  Unknown, Unknown, 0.000000, 0.000000, 0.000000, 0.000000, 0.000000, 0.000000
*LATT_CONS	=  0, Unknown, Unknown, 0.000000, 0.000000, 0.000000, 0.000000, 0.000000, 0.000000
*SEC_COUNT	=  1
*TSPEC_SIZE	=  0
*EXTRA_SIZE	=  0
*MEMO		=

*BEGIN
*GROUP		=  0
*START		=  20
*STOP		=  90
*STEP		=  0.01
*OFFSET		=  0.000000
*SPEED		=  0.196312
*SLIT_SPEC	=  0, 0.500mm, 0.5, 0.000000
*SLIT_SPEC	=  1, 0.500mm, 0.5, 0.000000
*SLIT_SPEC	=  2, 0.500mm, 0.5, 0.000000
*KV		=  45
*MA		=  200
*LOW		=  0.000000
*HIGH		=  0.000000
*CTEMPER	=  0, 0.000000
*CTEMPER	=  1, 0.000000
*CTEMPER	=  2, 0.000000
*PAREX		=  0, 0.000000
*PAREX		=  1, 0.000000
*PAREX		=  2, 0.000000
*PAREX		=  3, 0.000000
*PAREX		=  4, 0.000000
*PAREX		=  5, 0.000000
*PAREX		=  6, 0.000000
*PAREX		=  7, 0.000000
*PAREX		=  8, 0.000000
*PAREX		=  9, 0.000000
*PAREX		=  10, 0.000000
*PAREX		=  11, 0.000000
*PAREX		=  12, 0.000000
*PAREX		=  13, 0.000000
*PAREX		=  14, 0.000000
*PAREX		=  15, 0.000000
*FULL_SCALE	=  1616736.8
*INDEX		=  0, 0, 0
*COUNT		=  7001
0.000000, 1.99566, 4.04265, 1.00139
2.99427, 1.99065, 2.96419, 1.97764
4.98377, 2.00797, 3.97564, 2.98487
1.00488, 2.95552, 0.000000, 0.992768
2.00892, 2.94178, 2.96226, 0.967456
5.97842, 0.973702, 0.000000, 0.987345
0.986472, 2.97747, 3.97682, 1.95998
5.97007, 1.9896, 2.96986, 4.89665
1.0284, 3.99961, 4.98475, 4.97982
1.96808, 2.98337, 3.99787, 2.9871
1.96746, 0.988162, 3.04044, 5.97143
4.02891, 3.98185, 4.98791, 2.98381
0.000000, 1.97151, 3.99796, 1.97581
5.04304, 2.96084, 2.00078, 3.97928
4.94508, 0.995984, 5.00056, 5.01153
4.97273, 0.000000, 3.99086, 2.97418
4.94466, 0.989105, 0.996913, 3.95031
0.971559, 3.00123, 5.95245, 0.978242
3.99484, 4.98486, 4.97153, 4.95718
3.92429, 1.95414, 1.00259, 1.95986
5.97931, 2.01891, 5.00662, 2.98293
6.99397, 0.995072, 4.0237, 0.000000
1.99988, 1.97789, 4.00659, 4.99138
2.97455, 0.997087, 1.02859, 4.9877
4.95853, 1.97211, 1.97219, 3.96082
2.98815, 4.96871, 1.9747, 2.95562
1.99445, 2.97777, 1.02767, 5.02271
2.96756, 3.97028, 4.97337, 5.01317
1.99867, 4.00514, 5.95749, 5.00581
1.00015, 2.97842, 1.96493, 4.99679
3.94706, 1.00377, 0.000000, 2.9729
3.03106, 6.96769, 2.98519, 7.00165
3.02296, 3.9871, 6.97147, 5.00257
2.99347, 4.9677, 1.98015, 3.96809
8.89918, 4.95115, 2.95856, 2.99109
2.99601, 7.02159, 5.00043, 7.17681
6.02611, 6.96819, 5.96769, 7.98781
10.9445, 8.15068, 10.8809, 8.98581
8.9468, 8.97707, 11.0389, 9.90073
34.8248, 29.9452, 40.6926, 32.1085
89.1426, 78.1334, 105.5, 80.6486
288.459, 318.881, 358.164, 339.017
145309, 106212, 79433.4, 58958.6
64.7912, 67.75, 69.4035, 52.5068
20.1668, 13.9659, 17.2431, 22.9874
11.121, 17.1385, 9.92114, 13.014
6.00806, 8.00998, 11.0667, 7.9045
7.02163, 7.02596, 10.8928, 4.00807
11.152, 4.96458, 5.97004, 8.94023
5.98567, 5.99442, 0.962919, 7.97581
4.99125, 3.98922, 6.98213, 5.97267
3.97673, 2.99141, 2.97536, 5.00953
4.99175, 5.93842, 3.0253, 4.94522
2.98439, 3.97025, 7.94843, 3.00286
3.02178, 3.95615, 2.97943, 3.02628
5.89829, 5.93187, 1.96022, 1.98417
3.95075, 0.988941, 2.99518, 1.97067
4.99716, 3.94377, 0.976638, 4.97552
2.98509, 2.96341, 2.97204, 3.94215
3.0068, 2.95481, 1.99862, 1.03058
5.95577, 4.95176, 5.97015, 5.02289
1.01996, 0.988941, 4.03513, 6.95452
3.94855, 2.96821, 1.0063, 2.03864
3.95136, 0.000000, 2.98394, 3.00866
3.9683, 1.01936, 2.97324, 1.98985
3.02733, 4.97631, 4.98388, 1.99659
1.00761, 3.98546, 7.04694, 4.00514
3.96342, 1.93324, 4.03865, 0.996603
6.01561, 4.94361, 1.97837, 4.00979
4.99999, 1.99616, 1.99117, 5.93769
1.97356, 2.97182, 4.9095, 1.9959
0.980006, 2.00395, 3.01901, 4.14663
1.99798, 2.03159, 2.98606, 4.01042
3.9721, 5.08256, 2.9864, 3.97483
0.989522, 5.97463, 0.998123, 2.97771
0.984658, 0.000000, 1.01147, 6.97292
3.9557, 1.99035, 5.99416, 1.99864
3.98949, 2.97854, 1.9789, 1.98682
0.996436, 6.94459, 7.91916, 4.94131
2.96608, 0.999617, 7.02068, 1.96542
4.99197, 1.99803, 6.92525, 0.000000
5.00496, 2.98398, 1.00478, 5.01235
4.9772, 3.99659, 1.94034, 4.93878
4.94022, 5.04922, 0.985518, 1.02883
2.95022, 2.97234, 6.97441, 2.01195
5.93019, 2.95661, 5.01791, 6.96221
5.99722, 2.96075, 6.00558, 9.94982
14.0226, 13.9661, 16.8745, 18.9553
9.91958, 2.97813, 1.97481, 5.00457
1.97961, 4.93875, 2.9348, 1.99231
0.000000, 6.95788, 1.98027, 4.95397
6.95584, 0.995842, 3.02537, 3.95163
3.95624, 7.98763, 2.02507, 3.00541
3.01231, 5.00048, 3.0425, 4.00269
1.98331, 2.98048, 2.95466, 3.99793
2.98573, 6.01578, 1.99207, 2.97394
1.00455, 3.01186, 2.01878, 3.96942
0.987011, 2.99573, 4.97083, 3.95283
4.02194, 1.99273, 0.974621, 2.02574
1.94771, 2.99643, 4.9918, 3.98031
1.97433, 2.99373, 0.990595, 5.00167
5.99325, 1.00127, 4.00854, 2.95655
3.99101, 6.84214, 2.99052, 2.02797
2.96837, 4.95331, 1.00393, 3.96125
3.98107, 2.97602, 1.01147, 4.00106
4.99936, 2.94882, 4.93158, 4.99929
2.98696, 3.9657, 1.98749, 1.95372
5.92043, 7.01783, 1.99194, 2.02691
2.97459, 4.99964, 1.01056, 3.97142
0.996773, 5.97221, 2.96897, 2.96335
3.95676, 1.98685, 4.9262, 2.97597
0.988968, 1.98241, 2.00174, 1.98171
3.96947, 2.02839, 3.0158, 0.997094
5.00774, 3.93025, 0.991942, 3.98995
0.000000, 2.95805, 3.97588, 4.01765
4.01566, 3.98479, 1.01009, 0.995809
1.00438, 2.96153, 4.00648, 3.93586
1.97025, 4.04303, 1.99557, 0.986464
2.98486, 3.97711, 4.028, 1.00146
1.98266, 2.99586, 0.988274, 2.97298
0.000000, 1.96702, 5.01389, 4.96475
2.00304, 2.99634, 0.979151, 5.95343
4.91668, 3.98207, 1.9778, 4.98114
5.00416, 3.98068, 4.01997, 3.99001
5.95904, 0.982887, 4.957, 4.03559
5.9977, 2.98685, 2.98922, 2.00066
4.96342, 1.98103, 4.96095, 2.99349
2.03726, 3.99882, 2.02173, 3.95057
2.95405, 4.98844, 3.00084, 5.93887
3.96594, 3.94155, 2.9877, 6.09395
3.97671, 7.00836, 1.99005, 2.96137
5.9372, 5.93368, 5.9952, 4.01419
2.96704, 1.00377, 1.99772, 2.97709
2.9985, 2.99591, 1.00776, 4.00572
6.00546, 5.95093, 4.94399, 1.99938
1.99735, 3.97484, 6.02265, 3.96194
6.00512, 0.99036, 7.01349, 3.97282
0.000000, 4.94945, 1.99214, 1.9908
5.00836, 3.98243, 8.00377, 1.00015
2.99271, 2.01167, 3.01669, 10.0322
5.96249, 4.97622, 1.97868, 4.01335
1.97444, 0.992145, 2.9856, 1.93932
4.96034, 6.00156, 3.97478, 3.00237
8.89757, 2.98754, 4.96258, 5.00058
7.93789, 2.99848, 1.0092, 5.93763
1.98003, 4.9751, 1.99304, 5.99344
6.01406, 2.00186, 4.94982, 2.98218
6.95015, 2.00399, 3.95768, 6.95064
1.98744, 4.98016, 3.94762, 4.97004
4.9308, 2.97164, 6.94873, 3.99351
1.94657, 3.01129, 2.99983, 5.97604
1.98465, 6.95156, 6.89873, 4.98321
5.98223, 3.99265, 5.97444, 5.95795
2.98825, 2.96171, 5.97361, 7.01219
4.00364, 2.96652, 7.01006, 3.9426
0.9976, 5.97482, 3.00512, 3.99581
7.94291, 6.98844, 4.98697, 3.04624
10.8936, 3.93032, 4.91974, 6.97737
5.00722, 4.96234, 7.95692, 2.98237
5.01842, 10.0079, 12.9133, 10.8971
8.93991, 12.0319, 6.97273, 6.98508
7.8903, 8.01104, 14.9186, 20.9485
10.9545, 11.9783, 18.9884, 14.9524
41.9933, 47.1234, 55.8548, 41.7202
134.893, 174.257, 150.955, 178.643
45587.7, 61011.9, 74353.8, 78840.8
110.692, 90.8602, 79.8499, 84.3439
28.226, 39.9327, 33.7935, 34.9918
22.2044, 21.9104, 13.07, 19.9229
9.96317, 16.9351, 8.96124, 18.8652
10.8969, 6.94993, 12.0055, 8.94132
6.93284, 9.02194, 6.02886, 5.9871
5.92982, 10.0018, 6.974, 5.96205
10.0734, 6.93686, 6.01561, 11.9409
5.99076, 5.11775, 11.9279, 7.95767
5.03543, 9.01214, 2.98186, 5.99918
3.98159, 5.91456, 6.95666, 3.9538
7.10497, 5.91438, 3.99299, 5.99732
4.96097, 7.0295, 7.95869, 5.94959
5.0117, 8.97285, 3.94515, 2.00547
4.0013, 2.99846, 3.96184, 2.99442
5.95691, 4.95283, 2.96103, 2.11443
6.94444, 3.98519, 6.9777, 2.95613
4.98358, 2.99635, 2.99557, 0.000000
5.00916, 8.99289, 0.979109, 3.02172
5.94251, 5.99412, 1.98078, 1.9954
3.95238, 6.00698, 1.92762, 4.92631
3.92142, 2.95044, 3.97638, 4.04421
3.91907, 1.9852, 0.975458, 6.06215
0.983507, 4.97573, 4.98456, 4.93163
4.04722, 7.94146, 6.94906, 4.97367
3.01017, 3.97928, 6.94862, 1.00488
4.94042, 3.91858, 2.96998, 1.97196
4.99596, 3.92472, 4.98562, 4.05361
2.00031, 4.07514, 4.9733, 3.99243
5.95671, 1.94718, 6.9907, 7.99564
2.98383, 1.99567, 3.96641, 4.01344
4.00456, 6.94299, 3.01187, 5.93644
3.99414, 1.0063, 2.98761, 0.994781
5.90616, 5.00292, 1.99717, 2.99087
2.96394, 3.99673, 3.0031, 3.97937
2.99491, 3.97813, 7.95575, 2.99243
3.01131, 5.03101, 5.88784, 0.972822
2.92533, 3.92926, 1.98849, 4.99421
3.96985, 5.01658, 3.01737, 2.99494
3.01704, 9.1079, 2.96518, 0.997802
3.99767, 0.000000, 5.96341, 3.00256
3.01272, 4.95568, 0.977834, 1.98746
3.95819, 2.96752, 6.92396, 4.94747
3.97964, 4.93001, 3.01607, 5.97375
2.01729, 3.97317, 1.95832, 3.99427
4.9753, 5.99972, 0.989273, 3.97181
5.99613, 4.94827, 2.00105, 5.90491
4.95927, 5.96153, 7.94443, 5.99909
5.97268, 7.00482, 2.96002, 1.93845
5.92768, 2.97199, 2.97689, 0.983409
1.97384, 6.98769, 3.95988, 3.96218
4.9777, 1.9466, 7.00465, 6.97254
7.96358, 6.90899, 3.97865, 2.98341
1.91838, 0.989868, 3.97772, 2.04351
4.02356, 2.02426, 0.000000, 6.99741
6.9694, 4.97889, 5.97929, 5.94783
4.94249, 0.992365, 4.94109, 1.99426
7.91288, 4.14397, 5.93391, 7.94936
4.94219, 5.95969, 3.9597, 6.91441
0.993811, 6.0128, 2.99046, 3.9642
4.01171, 5.98491, 8.11713, 5.94795
4.00677, 13.0565, 3.98844, 5.97572
1.9718, 2.99632, 4.98075, 6.98776
3.00847, 4.94185, 5.91343, 7.05369
1.97811, 2.99318, 4.0305, 0.000000
4.95718, 5.15292, 2.0129, 6.95612
4.95389, 4.95341, 1.04108, 1.96724
6.94393, 4.01643, 2.95959, 6.93455
3.95296, 5.97883, 2.98079, 2.97065
6.00902, 2.99065, 5.97111, 2.98647
2.97642, 1.99895, 0.996773, 3.97348
2.97818, 1.96582, 4.97063, 5.98126
4.95557, 4.98572, 3.00957, 3.93062
4.00783, 5.96901, 2.97162, 4.97399
4.98141, 0.000000, 6.90584, 5.91862
0.000000, 1.98668, 1.98223, 0.997664
0.978133, 6.00928, 5.94389, 3.99209
7.97801, 3.97683, 2.00419, 2.99712
3.96061, 3.97711, 3.99094, 2.01253
5.93489, 6.98953, 3.94935, 3.99645
3.00499, 2.00983, 1.98911, 5.95577
0.000000, 1.96563, 2.9769, 2.01102
5.95975, 3.95657, 3.94789, 3.00602
8.93047, 8.0457, 2.96508, 5.95222
4.99384
*END

*EOF